Folder: osc/inst/extdata/cv

Note: README.md
# osctools: Tools for the Organic Surface Chemistry group

This R package contains/will contain a set of useful tools for students and researchers at the [Organic Surface Chemistry](http://surfchem.dk) group at Aarhus University, Denmark. The package is under development, and probably will be for some time. Check the topics below to get an overview of what has been implemented so far. If you are missing features, then go ahead and create [an issue](https://github.com/SPOMAN/osc/issues).

The functions should be properly documented, so try `?function_name` in the R console if you have questions about function parameters. More general introduction and usage examples will be made available in the [oscbook](https://spoman.github.io/oscbook/).

## Goals for v0.1
We are preparing the initial version of `osctools` for release. The intention is to have the following features implemented.

Category  | Data  | Loading | Plotting
---       | ---   | ---     | ---
**Electrochemistry** | CV | |
 | Electrolysis | |
**Raman spectroscopy** | Spectra | |
 | Spectra + curve fits | |
 | Maps | |
**XPS** | Spectra | |
 | HR Spectra + deconvolutions | |

File: cv_example3.txt
Sept. 6, 2017   14:48:45
Cyclic Voltammetry
File: cv 2 mm ferrocene gc microelectrode
Data Source:  Experiment
Instrument Model:  CHI601D
Header:
Note:

Init E (V) = 0
High E (V) = 2
Low E (V) = -2
Final E (V) = 0
Init P/N = P
Scan Rate (V/s) = 0.1
Segment = 3
Sample Interval (V) = 0.001
Quiet Time (sec) = 2
Sensitivity (A/V) = 1e-5

Potential/V, Current/A

Segment 1:
0.000, -1.698e-8
0.007, -5.821e-9
0.014, -4.125e-9
0.021, -3.242e-9
0.028, -2.379e-9
0.035, -2.163e-9
0.042, -1.104e-9
0.049, -1.104e-9
0.056, -6.472e-11
0.063, 8.237e-11
0.070, 7.394e-10
0.077, 9.552e-10
0.084, 1.671e-9
0.091, 1.779e-9
0.098, 2.612e-9
0.105, 2.593e-9
0.112, 3.269e-9
0.119, 3.319e-9
0.126, 4.181e-9
0.133, 4.436e-9
0.140, 4.946e-9
0.147, 5.084e-9
0.154, 5.760e-9
0.161, 5.868e-9
0.168, 6.682e-9
0.175, 6.682e-9
0.182, 7.378e-9
0.189, 7.467e-9
0.196, 8.290e-9
0.203, 8.526e-9
0.210, 9.320e-9
0.217, 9.193e-9
0.224, 1.009e-8
0.231, 9.977e-9
0.238, 1.105e-8
0.245, 1.091e-8
0.252, 1.175e-8
0.259, 1.153e-8
0.266, 1.240e-8
0.273, 1.236e-8
0.280, 1.343e-8
0.287, 1.324e-8
0.294, 1.396e-8
0.301, 1.391e-8
0.308, 1.451e-8
0.315, 1.468e-8
0.322, 1.548e-8
0.329, 1.530e-8
0.336, 1.595e-8
0.343, 1.597e-8
0.350, 1.667e-8
0.357, 1.666e-8
0.364, 1.741e-8
0.371, 1.732e-8
0.378, 1.815e-8
0.385, 1.788e-8
0.392, 1.915e-8
0.399, 1.887e-8
0.406, 1.989e-8
0.413, 1.966e-8
0.420, 2.083e-8
0.427, 2.093e-8
0.434, 2.228e-8
0.441, 2.204e-8
0.448, 2.332e-8
0.455, 2.330e-8
0.462, 2.466e-8
0.469, 2.486e-8
0.476, 2.618e-8
0.483, 2.631e-8
0.490, 2.766e-8
0.497, 2.810e-8
0.504, 2.975e-8
0.511, 3.018e-8
0.518, 3.182e-8
0.525, 3.259e-8
0.532, 3.464e-8
0.539, 3.563e-8
0.546, 3.835e-8
0.553, 3.948e-8
0.560, 4.263e-8
0.567, 4.510e-8
0.574, 4.992e-8
0.581, 5.423e-8
0.588, 6.099e-8
0.595, 6.734e-8
0.602, 7.922e-8
0.609, 9.090e-8
0.616, 1.089e-7
0.623, 1.295e-7
0.630, 1.574e-7
0.637, 1.920e-7
0.644, 2.391e-7
0.651, 2.982e-7
0.658, 3.765e-7
0.665, 4.740e-7
0.672, 6.016e-7
0.679, 7.575e-7
0.686, 9.552e-7
0.693, 1.200e-6
0.700, 1.501e-6
0.707, 1.851e-6
0.714, 2.260e-6
0.721, 2.712e-6
0.728, 3.224e-6
0.735, 3.751e-6
0.742, 4.278e-6
0.749, 4.775e-6
0.756, 5.224e-6
0.763, 5.590e-6
0.770, 5.865e-6
0.777, 6.028e-6
0.784, 6.091e-6
0.791, 6.065e-6
0.798, 5.974e-6
0.805, 5.831e-6
0.812, 5.660e-6
0.819, 5.470e-6
0.826, 5.275e-6
0.833, 5.085e-6
0.840, 4.905e-6
0.847, 4.734e-6
0.854, 4.579e-6
0.861, 4.431e-6
0.868, 4.302e-6
0.875, 4.178e-6
0.882, 4.070e-6
0.889, 3.968e-6
0.896, 3.877e-6
0.903, 3.793e-6
0.910, 3.715e-6
0.917, 3.644e-6
0.924, 3.580e-6
0.931, 3.516e-6
0.938, 3.464e-6
0.945, 3.407e-6
0.952, 3.362e-6
0.959, 3.314e-6
0.966, 3.271e-6
0.973, 3.232e-6
0.980, 3.192e-6
0.987, 3.158e-6
0.994, 3.124e-6
1.001, 3.090e-6
1.008, 3.064e-6
1.015, 3.030e-6
1.022, 3.008e-6
1.029, 2.980e-6
1.036, 2.957e-6
1.043, 2.935e-6
1.050, 2.912e-6
1.057, 2.894e-6
1.064, 2.875e-6
1.071, 2.857e-6
1.078, 2.842e-6
1.085, 2.823e-6
1.092, 2.811e-6
1.099, 2.797e-6
1.106, 2.783e-6
1.113, 2.772e-6
1.120, 2.761e-6
1.127, 2.747e-6
1.134, 2.740e-6
1.141, 2.729e-6
1.148, 2.719e-6
1.155, 2.711e-6
1.162, 2.701e-6
1.169, 2.694e-6
1.176, 2.685e-6
1.183, 2.677e-6
1.190, 2.671e-6
1.197, 2.662e-6
1.204, 2.655e-6
1.211, 2.648e-6
1.218, 2.640e-6
1.225, 2.634e-6
1.232, 2.626e-6
1.239, 2.620e-6
1.246, 2.615e-6
1.253, 2.608e-6
1.260, 2.604e-6
1.267, 2.598e-6
1.274, 2.595e-6
1.281, 2.591e-6
1.288, 2.586e-6
1.295, 2.585e-6
1.302, 2.579e-6
1.309, 2.577e-6
1.316, 2.574e-6
1.323, 2.568e-6
1.330, 2.572e-6
1.337, 2.562e-6
1.344, 2.567e-6
1.351, 2.562e-6
1.358, 2.561e-6
1.365, 2.563e-6
1.372, 2.558e-6
1.379, 2.560e-6
1.386, 2.559e-6
1.393, 2.555e-6
1.400, 2.560e-6
1.407, 2.555e-6
1.414, 2.556e-6
1.421, 2.556e-6
1.428, 2.554e-6
1.435, 2.555e-6
1.442, 2.552e-6
1.449, 2.551e-6
1.456, 2.551e-6
1.463, 2.545e-6
1.470, 2.549e-6
1.477, 2.542e-6
1.484, 2.543e-6
1.491, 2.542e-6
1.498, 2.536e-6
1.505, 2.542e-6
1.512, 2.535e-6
1.519, 2.538e-6
1.526, 2.537e-6
1.533, 2.535e-6
1.540, 2.541e-6
1.547, 2.536e-6
1.554, 2.548e-6
1.561, 2.543e-6
1.568, 2.550e-6
1.575, 2.556e-6
1.582, 2.556e-6
1.589, 2.568e-6
1.596, 2.571e-6
1.603, 2.575e-6
1.610, 2.589e-6
1.617, 2.587e-6
1.624, 2.603e-6
1.631, 2.610e-6
1.638, 2.612e-6
1.645, 2.628e-6
1.652, 2.626e-6
1.659, 2.642e-6
1.666, 2.648e-6
1.673, 2.652e-6
1.680, 2.667e-6
1.687, 2.668e-6
1.694, 2.680e-6
1.701, 2.688e-6
1.708, 2.693e-6
1.715, 2.707e-6
1.722, 2.711e-6
1.729, 2.726e-6
1.736, 2.736e-6
1.743, 2.749e-6
1.750, 2.767e-6
1.757, 2.784e-6
1.764, 2.813e-6
1.771, 2.836e-6
1.778, 2.875e-6
1.785, 2.912e-6
1.792, 2.951e-6
1.799, 2.994e-6
1.806, 3.032e-6
1.813, 3.072e-6
1.820, 3.110e-6
1.827, 3.141e-6
1.834, 3.185e-6
1.841, 3.214e-6
1.848, 3.261e-6
1.855, 3.303e-6
1.862, 3.345e-6
1.869, 3.402e-6
1.876, 3.450e-6
1.883, 3.516e-6
1.890, 3.584e-6
1.897, 3.648e-6
1.904, 3.740e-6
1.911, 3.818e-6
1.918, 3.920e-6
1.925, 4.028e-6
1.932, 4.138e-6
1.939, 4.276e-6
1.946, 4.407e-6
1.953, 4.568e-6
1.960, 4.743e-6
1.967, 4.919e-6
1.974, 5.132e-6
1.981, 5.341e-6
1.988, 5.581e-6
1.995, 5.836e-6
1.999, 5.986e-6

Segment 2:
2.000, 5.970e-6
1.986, 4.780e-6
1.972, 4.079e-6
1.958, 3.590e-6
1.944, 3.234e-6
1.930, 2.975e-6
1.916, 2.781e-6
1.902, 2.625e-6
1.888, 2.506e-6
1.874, 2.417e-6
1.860, 2.348e-6
1.846, 2.289e-6
1.832, 2.241e-6
1.818, 2.207e-6
1.804, 2.179e-6
1.790, 2.150e-6
1.776, 2.124e-6
1.762, 2.107e-6
1.748, 2.094e-6
1.734, 2.077e-6
1.720, 2.057e-6
1.706, 2.044e-6
1.692, 2.034e-6
1.678, 2.022e-6
1.664, 2.008e-6
1.650, 1.994e-6
1.636, 1.985e-6
1.622, 1.978e-6
1.608, 1.968e-6
1.594, 1.957e-6
1.580, 1.948e-6
1.566, 1.940e-6
1.552, 1.935e-6
1.538, 1.929e-6
1.524, 1.920e-6
1.510, 1.912e-6
1.496, 1.904e-6
1.482, 1.900e-6
1.468, 1.895e-6
1.454, 1.885e-6
1.440, 1.878e-6
1.426, 1.871e-6
1.412, 1.867e-6
1.398, 1.863e-6
1.384, 1.852e-6
1.370, 1.845e-6
1.356, 1.838e-6
1.342, 1.832e-6
1.328, 1.826e-6
1.314, 1.819e-6
1.300, 1.811e-6
1.286, 1.804e-6
1.272, 1.796e-6
1.258, 1.790e-6
1.244, 1.783e-6
1.230, 1.775e-6
1.216, 1.768e-6
1.202, 1.760e-6
1.188, 1.754e-6
1.174, 1.746e-6
1.160, 1.737e-6
1.146, 1.731e-6
1.132, 1.723e-6
1.118, 1.715e-6
1.104, 1.708e-6
1.090, 1.700e-6
1.076, 1.693e-6
1.062, 1.685e-6
1.048, 1.677e-6
1.034, 1.670e-6
1.020, 1.662e-6
1.006, 1.654e-6
0.992, 1.646e-6
0.978, 1.636e-6
0.964, 1.628e-6
0.950, 1.618e-6
0.936, 1.607e-6
0.922, 1.594e-6
0.908, 1.574e-6
0.894, 1.547e-6
0.880, 1.507e-6
0.866, 1.442e-6
0.852, 1.336e-6
0.838, 1.165e-6
0.824, 8.887e-7
0.810, 4.632e-7
0.796, -1.623e-7
0.782, -1.013e-6
0.768, -2.030e-6
0.754, -3.069e-6
0.740, -3.929e-6
0.726, -4.429e-6
0.712, -4.538e-6
0.698, -4.346e-6
0.684, -3.999e-6
0.670, -3.616e-6
0.656, -3.251e-6
0.642, -2.935e-6
0.628, -2.667e-6
0.614, -2.443e-6
0.600, -2.256e-6
0.586, -2.096e-6
0.572, -1.959e-6
0.558, -1.842e-6
0.544, -1.738e-6
0.530, -1.649e-6
0.516, -1.566e-6
0.502, -1.493e-6
0.488, -1.427e-6
0.474, -1.366e-6
0.460, -1.309e-6
0.446, -1.257e-6
0.432, -1.209e-6
0.418, -1.162e-6
0.404, -1.119e-6
0.390, -1.079e-6
0.376, -1.042e-6
0.362, -1.005e-6
0.348, -9.702e-7
0.334, -9.379e-7
0.320, -9.075e-7
0.306, -8.783e-7
0.292, -8.497e-7
0.278, -8.213e-7
0.264, -7.965e-7
0.250, -7.716e-7
0.236, -7.479e-7
0.222, -7.257e-7
0.208, -7.030e-7
0.194, -6.815e-7
0.180, -6.612e-7
0.166, -6.423e-7
0.152, -6.234e-7
0.138, -6.050e-7
0.124, -5.875e-7
0.110, -5.715e-7
0.096, -5.540e-7
0.082, -5.389e-7
0.068, -5.244e-7
0.054, -5.103e-7
0.040, -4.959e-7
0.026, -4.813e-7
0.012, -4.691e-7
-0.002, -4.579e-7
-0.016, -4.456e-7
-0.030, -4.338e-7
-0.044, -4.235e-7
-0.058, -4.133e-7
-0.072, -4.043e-7
-0.086, -3.941e-7
-0.100, -3.853e-7
-0.114, -3.777e-7
-0.128, -3.705e-7
-0.142, -3.638e-7
-0.156, -3.577e-7
-0.170, -3.516e-7
-0.184, -3.457e-7
-0.198, -3.403e-7
-0.212, -3.367e-7
-0.226, -3.330e-7
-0.240, -3.292e-7
-0.254, -3.262e-7
-0.268, -3.237e-7
-0.282, -3.218e-7
-0.296, -3.206e-7
-0.310, -3.190e-7
-0.324, -3.186e-7
-0.338, -3.195e-7
-0.352, -3.208e-7
-0.366, -3.230e-7
-0.380, -3.257e-7
-0.394, -3.291e-7
-0.408, -3.336e-7
-0.422, -3.381e-7
-0.436, -3.439e-7
-0.450, -3.522e-7
-0.464, -3.607e-7
-0.478, -3.698e-7
-0.492, -3.793e-7
-0.506, -3.896e-7
-0.520, -4.005e-7
-0.534, -4.111e-7
-0.548, -4.213e-7
-0.562, -4.310e-7
-0.576, -4.402e-7
-0.590, -4.495e-7
-0.604, -4.578e-7
-0.618, -4.638e-7
-0.632, -4.688e-7
-0.646, -4.715e-7
-0.660, -4.729e-7
-0.674, -4.733e-7
-0.688, -4.725e-7
-0.702, -4.714e-7
-0.716, -4.703e-7
-0.730, -4.686e-7
-0.744, -4.674e-7
-0.758, -4.662e-7
-0.772, -4.652e-7
-0.786, -4.650e-7
-0.800, -4.641e-7
-0.814, -4.640e-7
-0.828, -4.642e-7
-0.842, -4.646e-7
-0.856, -4.652e-7
-0.870, -4.651e-7
-0.884, -4.656e-7
-0.898, -4.667e-7
-0.912, -4.674e-7
-0.926, -4.677e-7
-0.940, -4.682e-7
-0.954, -4.692e-7
-0.968, -4.703e-7
-0.982, -4.707e-7
-0.996, -4.712e-7
-1.010, -4.724e-7
-1.024, -4.733e-7
-1.038, -4.743e-7
-1.052, -4.752e-7
-1.066, -4.762e-7
-1.080, -4.777e-7
-1.094, -4.794e-7
-1.108, -4.810e-7
-1.122, -4.829e-7
-1.136, -4.841e-7
-1.150, -4.854e-7
-1.164, -4.864e-7
-1.178, -4.874e-7
-1.192, -4.889e-7
-1.206, -4.901e-7
-1.220, -4.911e-7
-1.234, -4.922e-7
-1.248, -4.937e-7
-1.262, -4.958e-7
-1.276, -4.974e-7
-1.290, -4.990e-7
-1.304, -5.011e-7
-1.318, -5.033e-7
-1.332, -5.051e-7
-1.346, -5.076e-7
-1.360, -5.097e-7
-1.374, -5.123e-7
-1.388, -5.149e-7
-1.402, -5.171e-7
-1.416, -5.194e-7
-1.430, -5.217e-7
-1.444, -5.238e-7
-1.458, -5.258e-7
-1.472, -5.276e-7
-1.486, -5.296e-7
-1.500, -5.316e-7
-1.514, -5.340e-7
-1.528, -5.362e-7
-1.542, -5.382e-7
-1.556, -5.407e-7
-1.570, -5.436e-7
-1.584, -5.467e-7
-1.598, -5.503e-7
-1.612, -5.538e-7
-1.626, -5.582e-7
-1.640, -5.640e-7
-1.654, -5.704e-7
-1.668, -5.757e-7
-1.682, -5.825e-7
-1.696, -5.893e-7
-1.710, -5.970e-7
-1.724, -6.045e-7
-1.738, -6.124e-7
-1.752, -6.216e-7
-1.766, -6.299e-7
-1.780, -6.390e-7
-1.794, -6.489e-7
-1.808, -6.581e-7
-1.822, -6.687e-7
-1.836, -6.781e-7
-1.850, -6.881e-7
-1.864, -6.991e-7
-1.878, -7.099e-7
-1.892, -7.220e-7
-1.906, -7.345e-7
-1.920, -7.482e-7
-1.934, -7.642e-7
-1.948, -7.804e-7
-1.962, -7.989e-7
-1.976, -8.196e-7
-1.990, -8.424e-7
-1.999, -8.574e-7

Segment 3:
-2.000, -8.452e-7
-1.993, -7.507e-7
-1.986, -6.960e-7
-1.979, -6.520e-7
-1.972, -6.156e-7
-1.965, -5.838e-7
-1.958, -5.560e-7
-1.951, -5.318e-7
-1.944, -5.100e-7
-1.937, -4.904e-7
-1.930, -4.733e-7
-1.923, -4.572e-7
-1.916, -4.421e-7
-1.909, -4.288e-7
-1.902, -4.167e-7
-1.895, -4.060e-7
-1.888, -3.953e-7
-1.881, -3.863e-7
-1.874, -3.774e-7
-1.867, -3.697e-7
-1.860, -3.623e-7
-1.853, -3.556e-7
-1.846, -3.495e-7
-1.839, -3.429e-7
-1.832, -3.377e-7
-1.825, -3.331e-7
-1.818, -3.287e-7
-1.811, -3.247e-7
-1.804, -3.200e-7
-1.797, -3.165e-7
-1.790, -3.127e-7
-1.783, -3.096e-7
-1.776, -3.068e-7
-1.769, -3.035e-7
-1.762, -3.008e-7
-1.755, -2.977e-7
-1.748, -2.954e-7
-1.741, -2.934e-7
-1.734, -2.909e-7
-1.727, -2.888e-7
-1.720, -2.866e-7
-1.713, -2.850e-7
-1.706, -2.831e-7
-1.699, -2.814e-7
-1.692, -2.796e-7
-1.685, -2.781e-7
-1.678, -2.763e-7
-1.671, -2.754e-7
-1.664, -2.736e-7
-1.657, -2.721e-7
-1.650, -2.705e-7
-1.643, -2.690e-7
-1.636, -2.685e-7
-1.629, -2.672e-7
-1.622, -2.664e-7
-1.615, -2.651e-7
-1.608, -2.640e-7
-1.601, -2.632e-7
-1.594, -2.623e-7
-1.587, -2.615e-7
-1.580, -2.606e-7
-1.573, -2.600e-7
-1.566, -2.587e-7
-1.559, -2.586e-7
-1.552, -2.573e-7
-1.545, -2.570e-7
-1.538, -2.560e-7
-1.531, -2.553e-7
-1.524, -2.549e-7
-1.517, -2.539e-7
-1.510, -2.535e-7
-1.503, -2.527e-7
-1.496, -2.515e-7
-1.489, -2.513e-7
-1.482, -2.502e-7
-1.475, -2.500e-7
-1.468, -2.490e-7
-1.461, -2.480e-7
-1.454, -2.476e-7
-1.447, -2.466e-7
-1.440, -2.463e-7
-1.433, -2.455e-7
-1.426, -2.446e-7
-1.419, -2.443e-7
-1.412, -2.435e-7
-1.405, -2.433e-7
-1.398, -2.425e-7
-1.391, -2.419e-7
-1.384, -2.409e-7
-1.377, -2.408e-7
-1.370, -2.398e-7
-1.363, -2.396e-7
-1.356, -2.388e-7
-1.349, -2.380e-7
-1.342, -2.374e-7
-1.335, -2.370e-7
-1.328, -2.365e-7
-1.321, -2.360e-7
-1.314, -2.351e-7
-1.307, -2.344e-7
-1.300, -2.340e-7
-1.293, -2.333e-7
-1.286, -2.330e-7
-1.279, -2.324e-7
-1.272, -2.314e-7
-1.265, -2.313e-7
-1.258, -2.305e-7
-1.251, -2.306e-7
-1.244, -2.298e-7
-1.237, -2.291e-7
-1.230, -2.289e-7
-1.223, -2.281e-7
-1.216, -2.279e-7
-1.209, -2.274e-7
-1.202, -2.267e-7
-1.195, -2.261e-7
-1.188, -2.251e-7
-1.181, -2.249e-7
-1.174, -2.241e-7
-1.167, -2.232e-7
-1.160, -2.224e-7
-1.153, -2.213e-7
-1.146, -2.209e-7
-1.139, -2.203e-7
-1.132, -2.193e-7
-1.125, -2.189e-7
-1.118, -2.173e-7
-1.111, -2.175e-7
-1.104, -2.166e-7
-1.097, -2.160e-7
-1.090, -2.152e-7
-1.083, -2.143e-7
-1.076, -2.140e-7
-1.069, -2.131e-7
-1.062, -2.125e-7
-1.055, -2.123e-7
-1.048, -2.109e-7
-1.041, -2.109e-7
-1.034, -2.101e-7
-1.027, -2.098e-7
-1.020, -2.094e-7
-1.013, -2.082e-7
-1.006, -2.082e-7
-0.999, -2.075e-7
-0.992, -2.070e-7
-0.985, -2.070e-7
-0.978, -2.056e-7
-0.971, -2.055e-7
-0.964, -2.047e-7
-0.957, -2.044e-7
-0.950, -2.038e-7
-0.943, -2.032e-7
-0.936, -2.023e-7
-0.929, -2.018e-7
-0.922, -2.011e-7
-0.915, -2.008e-7
-0.908, -1.996e-7
-0.901, -1.988e-7
-0.894, -1.980e-7
-0.887, -1.973e-7
-0.880, -1.966e-7
-0.873, -1.960e-7
-0.866, -1.948e-7
-0.859, -1.944e-7
-0.852, -1.934e-7
-0.845, -1.931e-7
-0.838, -1.920e-7
-0.831, -1.914e-7
-0.824, -1.904e-7
-0.817, -1.895e-7
-0.810, -1.889e-7
-0.803, -1.882e-7
-0.796, -1.872e-7
-0.789, -1.861e-7
-0.782, -1.849e-7
-0.775, -1.844e-7
-0.768, -1.832e-7
-0.761, -1.825e-7
-0.754, -1.812e-7
-0.747, -1.800e-7
-0.740, -1.791e-7
-0.733, -1.782e-7
-0.726, -1.764e-7
-0.719, -1.750e-7
-0.712, -1.726e-7
-0.705, -1.716e-7
-0.698, -1.693e-7
-0.691, -1.677e-7
-0.684, -1.657e-7
-0.677, -1.636e-7
-0.670, -1.611e-7
-0.663, -1.591e-7
-0.656, -1.563e-7
-0.649, -1.542e-7
-0.642, -1.508e-7
-0.635, -1.475e-7
-0.628, -1.440e-7
-0.621, -1.408e-7
-0.614, -1.366e-7
-0.607, -1.331e-7
-0.600, -1.288e-7
-0.593, -1.245e-7
-0.586, -1.195e-7
-0.579, -1.148e-7
-0.572, -1.093e-7
-0.565, -1.044e-7
-0.558, -9.828e-8
-0.551, -9.288e-8
-0.544, -8.655e-8
-0.537, -8.149e-8
-0.530, -7.504e-8
-0.523, -6.931e-8
-0.516, -6.340e-8
-0.509, -5.815e-8
-0.502, -5.183e-8
-0.495, -4.637e-8
-0.488, -3.979e-8
-0.481, -3.481e-8
-0.474, -2.975e-8
-0.467, -2.442e-8
-0.460, -1.941e-8
-0.453, -1.487e-8
-0.446, -9.744e-9
-0.439, -6.331e-9
-0.432, -1.810e-9
-0.425, 1.691e-9
-0.418, 5.554e-9
-0.411, 8.830e-9
-0.404, 1.264e-8
-0.397, 1.500e-8
-0.390, 1.764e-8
-0.383, 1.991e-8
-0.376, 2.332e-8
-0.369, 2.538e-8
-0.362, 2.762e-8
-0.355, 2.941e-8
-0.348, 3.129e-8
-0.341, 3.320e-8
-0.334, 3.532e-8
-0.327, 3.624e-8
-0.320, 3.827e-8
-0.313, 3.917e-8
-0.306, 4.078e-8
-0.299, 4.200e-8
-0.292, 4.342e-8
-0.285, 4.422e-8
-0.278, 4.567e-8
-0.271, 4.633e-8
-0.264, 4.831e-8
-0.257, 4.866e-8
-0.250, 5.002e-8
-0.243, 5.047e-8
-0.236, 5.156e-8
-0.229, 5.224e-8
-0.222, 5.344e-8
-0.215, 5.349e-8
-0.208, 5.483e-8
-0.201, 5.507e-8
-0.194, 5.641e-8
-0.187, 5.693e-8
-0.180, 5.787e-8
-0.173, 5.821e-8
-0.166, 5.936e-8
-0.159, 5.973e-8
-0.152, 6.092e-8
-0.145, 6.104e-8
-0.138, 6.195e-8
-0.131, 6.228e-8
-0.124, 6.321e-8
-0.117, 6.351e-8
-0.110, 6.436e-8
-0.103, 6.426e-8
-0.096, 6.513e-8
-0.089, 6.508e-8
-0.082, 6.618e-8
-0.075, 6.634e-8
-0.068, 6.736e-8
-0.061, 6.732e-8
-0.054, 6.839e-8
-0.047, 6.868e-8
-0.040, 7.027e-8
-0.033, 7.006e-8
-0.026, 7.132e-8
-0.019, 7.104e-8
-0.012, 7.236e-8
-0.005, 7.250e-8
-0.001, 7.295e-8