Folder: osc/inst/extdata/electrolysis

Note: README.md
# osctools: Tools for the Organic Surface Chemistry group

This R package contains/will contain a set of useful tools for students and researchers at the [Organic Surface Chemistry](http://surfchem.dk) group at Aarhus University, Denmark. The package is under development, and probably will be for some time. Check the topics below to get an overview of what has been implemented so far. If you are missing features, then go ahead and create [an issue](https://github.com/SPOMAN/osc/issues).

The functions should be properly documented, so try `?function_name` in the R console if you have questions about function parameters. More general introduction and usage examples will be made available in the [oscbook](https://spoman.github.io/oscbook/).

## Goals for v0.1
We are preparing the initial version of `osctools` for release. The intention is to have the following features implemented.

Category  | Data  | Loading | Plotting
---       | ---   | ---     | ---
**Electrochemistry** | CV | |
 | Electrolysis | |
**Raman spectroscopy** | Spectra | |
 | Spectra + curve fits | |
 | Maps | |
**XPS** | Spectra | |
 | HR Spectra + deconvolutions | |

File: electrolysis_example.txt
June 15, 2015   15:19:12
Bulk Electrolysis with Coulometry
File: electrolysis
Data Source:  Experiment
Instrument Model:  CHI601C
Header:
Note:

Init E (V) = -1.7
End Current Ratio (%) = 0
Data Storage Interval (s) = 1

Time/sec, Charge/C, Current/A

1.000, 1.060e-2, 1.060e-2
35.000, 3.123e-1, 8.810e-3
69.000, 6.113e-1, 8.765e-3
103.000, 9.099e-1, 8.782e-3
137.000, 1.208e+0, 8.781e-3
171.000, 1.507e+0, 8.782e-3
205.000, 1.805e+0, 8.767e-3
239.000, 2.103e+0, 8.791e-3
273.000, 2.401e+0, 8.762e-3
307.000, 2.699e+0, 8.767e-3
341.000, 2.996e+0, 8.764e-3
375.000, 3.294e+0, 8.746e-3
409.000, 3.592e+0, 8.760e-3
443.000, 3.889e+0, 8.743e-3
477.000, 4.187e+0, 8.721e-3
511.000, 4.484e+0, 8.759e-3
545.000, 4.781e+0, 8.739e-3
579.000, 5.079e+0, 8.750e-3
613.000, 5.376e+0, 8.741e-3
647.000, 5.673e+0, 8.723e-3
681.000, 5.970e+0, 8.723e-3
715.000, 6.267e+0, 8.736e-3
749.000, 6.564e+0, 8.735e-3
783.000, 6.860e+0, 8.721e-3
817.000, 7.157e+0, 8.744e-3
851.000, 7.454e+0, 8.721e-3
885.000, 7.751e+0, 8.735e-3
919.000, 8.048e+0, 8.721e-3
953.000, 8.344e+0, 8.726e-3
987.000, 8.641e+0, 8.712e-3
1021.000, 8.937e+0, 8.728e-3
1055.000, 9.234e+0, 8.729e-3
1089.000, 9.530e+0, 8.714e-3
1123.000, 9.827e+0, 8.719e-3
1157.000, 1.012e+1, 8.715e-3
1191.000, 1.042e+1, 8.711e-3
1225.000, 1.072e+1, 8.709e-3
1259.000, 1.101e+1, 8.705e-3
1293.000, 1.131e+1, 8.719e-3
1327.000, 1.160e+1, 8.704e-3
1361.000, 1.190e+1, 8.697e-3
1395.000, 1.220e+1, 8.710e-3
1429.000, 1.249e+1, 8.697e-3
1463.000, 1.279e+1, 8.698e-3
1497.000, 1.308e+1, 8.701e-3
1531.000, 1.338e+1, 8.706e-3
1565.000, 1.368e+1, 8.683e-3
1599.000, 1.397e+1, 8.710e-3
1633.000, 1.427e+1, 8.701e-3
1667.000, 1.456e+1, 8.687e-3
1701.000, 1.486e+1, 8.696e-3
1735.000, 1.515e+1, 8.682e-3
1769.000, 1.545e+1, 8.704e-3
1803.000, 1.575e+1, 8.690e-3
1837.000, 1.604e+1, 8.708e-3
1871.000, 1.634e+1, 8.705e-3
1905.000, 1.663e+1, 8.686e-3
1939.000, 1.693e+1, 8.701e-3
1973.000, 1.722e+1, 8.686e-3
2007.000, 1.752e+1, 8.699e-3
2041.000, 1.782e+1, 8.687e-3
2075.000, 1.811e+1, 8.693e-3
2109.000, 1.841e+1, 8.691e-3
2143.000, 1.870e+1, 8.707e-3
2177.000, 1.900e+1, 8.691e-3
2211.000, 1.929e+1, 8.706e-3
2245.000, 1.959e+1, 8.696e-3
2279.000, 1.989e+1, 8.701e-3
2313.000, 2.018e+1, 8.712e-3
2347.000, 2.048e+1, 8.697e-3
2381.000, 2.077e+1, 8.680e-3
2415.000, 2.107e+1, 8.695e-3
2449.000, 2.137e+1, 8.671e-3
2483.000, 2.166e+1, 8.701e-3
2517.000, 2.196e+1, 8.722e-3
2551.000, 2.225e+1, 8.727e-3
2585.000, 2.255e+1, 8.702e-3
2619.000, 2.285e+1, 8.705e-3
2653.000, 2.314e+1, 8.699e-3
2687.000, 2.344e+1, 8.679e-3
2721.000, 2.373e+1, 8.704e-3
2755.000, 2.403e+1, 8.675e-3
2789.000, 2.432e+1, 8.674e-3
2823.000, 2.462e+1, 8.671e-3
2857.000, 2.491e+1, 8.668e-3
2891.000, 2.521e+1, 8.663e-3
2925.000, 2.550e+1, 8.665e-3
2959.000, 2.580e+1, 8.668e-3
2993.000, 2.609e+1, 8.641e-3
3027.000, 2.639e+1, 8.679e-3
3061.000, 2.668e+1, 8.663e-3
3095.000, 2.698e+1, 8.649e-3
3129.000, 2.727e+1, 8.656e-3
3163.000, 2.756e+1, 8.650e-3
3197.000, 2.786e+1, 8.655e-3
3231.000, 2.815e+1, 8.659e-3
3265.000, 2.845e+1, 8.663e-3
3299.000, 2.874e+1, 8.653e-3
3333.000, 2.904e+1, 8.673e-3
3367.000, 2.933e+1, 8.672e-3
3401.000, 2.962e+1, 8.668e-3
3435.000, 2.992e+1, 8.655e-3
3469.000, 3.021e+1, 8.673e-3
3503.000, 3.051e+1, 8.681e-3
3537.000, 3.080e+1, 8.676e-3
3571.000, 3.110e+1, 8.707e-3
3605.000, 3.140e+1, 8.684e-3
3639.000, 3.169e+1, 8.692e-3
3673.000, 3.199e+1, 8.668e-3
3707.000, 3.228e+1, 8.657e-3
3741.000, 3.257e+1, 8.657e-3
3775.000, 3.287e+1, 8.614e-3
3809.000, 3.316e+1, 8.607e-3
3843.000, 3.345e+1, 8.605e-3
3877.000, 3.375e+1, 8.591e-3
3911.000, 3.404e+1, 8.598e-3
3945.000, 3.433e+1, 8.584e-3
3979.000, 3.462e+1, 8.595e-3
4013.000, 3.491e+1, 8.590e-3
4047.000, 3.521e+1, 8.575e-3
4081.000, 3.550e+1, 8.550e-3
4115.000, 3.579e+1, 8.536e-3
4149.000, 3.608e+1, 8.544e-3
4183.000, 3.637e+1, 8.512e-3
4217.000, 3.666e+1, 8.506e-3
4251.000, 3.695e+1, 8.528e-3
4285.000, 3.724e+1, 8.499e-3
4319.000, 3.752e+1, 8.427e-3
4353.000, 3.781e+1, 8.424e-3
4387.000, 3.809e+1, 8.252e-3
4421.000, 3.837e+1, 8.192e-3
4455.000, 3.865e+1, 8.130e-3
4489.000, 3.892e+1, 8.036e-3
4523.000, 3.919e+1, 8.009e-3
4557.000, 3.946e+1, 7.993e-3
4591.000, 3.974e+1, 7.924e-3
4625.000, 4.000e+1, 7.997e-3
4659.000, 4.027e+1, 7.881e-3
4693.000, 4.054e+1, 7.767e-3
4727.000, 4.080e+1, 7.783e-3
4761.000, 4.107e+1, 7.724e-3
4795.000, 4.133e+1, 7.698e-3
4829.000, 4.159e+1, 7.650e-3
4863.000, 4.185e+1, 7.583e-3
4897.000, 4.210e+1, 7.578e-3
4931.000, 4.236e+1, 7.469e-3
4965.000, 4.262e+1, 7.522e-3
4999.000, 4.287e+1, 7.525e-3
5033.000, 4.312e+1, 7.402e-3
5067.000, 4.338e+1, 7.341e-3
5101.000, 4.363e+1, 7.244e-3
5135.000, 4.387e+1, 7.284e-3
5169.000, 4.412e+1, 7.183e-3
5203.000, 4.436e+1, 7.157e-3
5237.000, 4.461e+1, 7.129e-3
5271.000, 4.485e+1, 7.134e-3
5305.000, 4.509e+1, 7.005e-3
5339.000, 4.533e+1, 7.073e-3
5373.000, 4.557e+1, 7.021e-3
5407.000, 4.581e+1, 7.021e-3
5441.000, 4.605e+1, 6.870e-3
5475.000, 4.628e+1, 6.884e-3
5509.000, 4.652e+1, 6.910e-3
5543.000, 4.675e+1, 6.810e-3
5577.000, 4.698e+1, 6.775e-3
5611.000, 4.722e+1, 6.807e-3
5645.000, 4.745e+1, 6.763e-3
5679.000, 4.768e+1, 6.829e-3
5713.000, 4.791e+1, 6.844e-3
5747.000, 4.814e+1, 6.733e-3
5781.000, 4.837e+1, 6.681e-3
5815.000, 4.860e+1, 6.678e-3
5849.000, 4.883e+1, 6.610e-3
5883.000, 4.905e+1, 6.715e-3
5917.000, 4.928e+1, 6.628e-3
5951.000, 4.950e+1, 6.524e-3
5985.000, 4.973e+1, 6.571e-3
6019.000, 4.995e+1, 6.525e-3
6053.000, 5.017e+1, 6.560e-3
6087.000, 5.039e+1, 6.470e-3
6121.000, 5.061e+1, 6.454e-3
6155.000, 5.082e+1, 6.345e-3
6189.000, 5.104e+1, 6.352e-3
6223.000, 5.126e+1, 6.302e-3
6257.000, 5.147e+1, 6.290e-3
6291.000, 5.169e+1, 6.322e-3
6325.000, 5.190e+1, 6.309e-3
6359.000, 5.212e+1, 6.292e-3
6393.000, 5.233e+1, 6.257e-3
6427.000, 5.254e+1, 6.277e-3
6461.000, 5.275e+1, 6.295e-3
6495.000, 5.297e+1, 6.216e-3
6529.000, 5.318e+1, 6.264e-3
6563.000, 5.339e+1, 6.221e-3
6597.000, 5.360e+1, 6.213e-3
6631.000, 5.381e+1, 6.236e-3
6665.000, 5.402e+1, 6.154e-3
6699.000, 5.423e+1, 6.170e-3
6733.000, 5.444e+1, 6.141e-3
6767.000, 5.465e+1, 6.172e-3
6801.000, 5.486e+1, 6.113e-3
6835.000, 5.507e+1, 6.096e-3
6869.000, 5.528e+1, 6.161e-3
6903.000, 5.549e+1, 6.154e-3
6937.000, 5.570e+1, 6.082e-3
6971.000, 5.590e+1, 6.058e-3
7005.000, 5.611e+1, 6.073e-3
7039.000, 5.631e+1, 6.077e-3
7073.000, 5.652e+1, 5.991e-3
7107.000, 5.672e+1, 6.041e-3
7141.000, 5.693e+1, 5.974e-3
7175.000, 5.713e+1, 6.034e-3
7209.000, 5.734e+1, 6.091e-3
7243.000, 5.754e+1, 5.991e-3
7277.000, 5.775e+1, 5.977e-3
7311.000, 5.795e+1, 5.915e-3
7345.000, 5.815e+1, 5.867e-3
7379.000, 5.834e+1, 5.882e-3
7413.000, 5.854e+1, 5.836e-3
7447.000, 5.874e+1, 5.818e-3
7481.000, 5.894e+1, 5.877e-3
7515.000, 5.914e+1, 5.822e-3
7549.000, 5.934e+1, 5.864e-3
7583.000, 5.954e+1, 5.834e-3
7617.000, 5.973e+1, 5.931e-3
7651.000, 5.993e+1, 5.838e-3
7685.000, 6.013e+1, 5.811e-3
7719.000, 6.033e+1, 5.780e-3
7753.000, 6.052e+1, 5.786e-3
7787.000, 6.072e+1, 5.757e-3
7821.000, 6.091e+1, 5.766e-3
7855.000, 6.111e+1, 5.777e-3
7889.000, 6.131e+1, 5.790e-3
7923.000, 6.150e+1, 5.726e-3
7957.000, 6.170e+1, 5.713e-3
7991.000, 6.189e+1, 5.771e-3
8025.000, 6.209e+1, 5.725e-3
8059.000, 6.228e+1, 5.683e-3
8093.000, 6.248e+1, 5.756e-3
8127.000, 6.267e+1, 5.753e-3
8161.000, 6.287e+1, 5.749e-3
8195.000, 6.306e+1, 5.741e-3
8229.000, 6.326e+1, 5.691e-3
8263.000, 6.345e+1, 5.692e-3
8297.000, 6.364e+1, 5.677e-3
8331.000, 6.384e+1, 5.723e-3
8365.000, 6.403e+1, 5.694e-3
8399.000, 6.422e+1, 5.628e-3
8433.000, 6.442e+1, 5.626e-3
8467.000, 6.461e+1, 5.595e-3
8501.000, 6.480e+1, 5.619e-3
8535.000, 6.499e+1, 5.668e-3
8569.000, 6.518e+1, 5.636e-3
8603.000, 6.537e+1, 5.526e-3
8637.000, 6.556e+1, 5.472e-3
8671.000, 6.574e+1, 5.544e-3
8705.000, 6.593e+1, 5.523e-3
8739.000, 6.612e+1, 5.572e-3
8773.000, 6.631e+1, 5.460e-3
8807.000, 6.649e+1, 5.479e-3
8841.000, 6.668e+1, 5.478e-3
8875.000, 6.686e+1, 5.526e-3
8909.000, 6.705e+1, 5.448e-3
8943.000, 6.724e+1, 5.457e-3
8977.000, 6.742e+1, 5.502e-3
9011.000, 6.761e+1, 5.481e-3
9045.000, 6.780e+1, 5.466e-3
9079.000, 6.798e+1, 5.399e-3
9113.000, 6.817e+1, 5.428e-3
9147.000, 6.835e+1, 5.429e-3
9181.000, 6.854e+1, 5.403e-3
9215.000, 6.872e+1, 5.434e-3
9249.000, 6.890e+1, 5.404e-3
9283.000, 6.909e+1, 5.365e-3
9317.000, 6.927e+1, 5.374e-3
9351.000, 6.945e+1, 5.365e-3
9385.000, 6.964e+1, 5.337e-3
9419.000, 6.982e+1, 5.328e-3
9453.000, 7.000e+1, 5.316e-3
9487.000, 7.018e+1, 5.314e-3
9521.000, 7.036e+1, 5.334e-3
9555.000, 7.055e+1, 5.302e-3
9589.000, 7.073e+1, 5.306e-3
9623.000, 7.091e+1, 5.322e-3
9657.000, 7.109e+1, 5.269e-3
9691.000, 7.127e+1, 5.281e-3
9725.000, 7.144e+1, 5.267e-3
9759.000, 7.162e+1, 5.254e-3
9793.000, 7.180e+1, 5.210e-3
9827.000, 7.198e+1, 5.208e-3
9861.000, 7.216e+1, 5.285e-3
9895.000, 7.234e+1, 5.224e-3
9929.000, 7.251e+1, 5.183e-3
9963.000, 7.269e+1, 5.143e-3
9997.000, 7.287e+1, 5.118e-3
10031.000, 7.304e+1, 5.180e-3
10043.000, 7.310e+1, 5.143e-3